File: FT-IR/Gruppe2A/aluminium_spacer.dat
#Datum: 21.01.2016 16:19:44
#Quelle: aluminium_spacer

#Daten:
cm-1;%T
450;80,7607321251265
453;81,8963368654223
456;82,2290273622833
459;82,8119149053478
462;83,6031302670081
465;84,0823369075568
468;84,6422106325021
471;85,7170787237356
474;86,9443673620688
477;87,4594347475565
480;88,0645901253016
483;88,8585302949141
486;89,2809120295119
489;89,3706345566202
492;89,7371447816526
495;90,3370613369362
498;90,4302973870594
501;90,5583920908207
504;90,9839145194145
507;91,1242553380015
510;90,7842930660652
513;90,7197056483452
516;90,6541335215136
519;90,1616876910666
522;89,7969653248236
525;89,6794757308674
528;89,3519402551324
531;88,8345223079039
534;88,5532777007795
537;88,1506874368178
540;87,4551619387488
543;86,8611452927912
546;86,4984121864277
549;85,8724882515876
552;85,2833061835487
555;85,0333995028147
558;84,6185411395478
561;84,1413180208319
564;83,8681423683396
567;83,5379296310616
570;83,0783997383521
573;82,7562448735909
576;82,4274125001293
579;82,2500867971585
582;82,2038381287002
585;82,1129551487137
588;82,145349962694
591;82,2424036761704
594;82,1368946211172
597;82,2110712032578
600;82,5086096069936
603;82,7653456285988
606;82,9732086133395
609;83,4280834701171
612;83,753333678067
615;84,0593964148129
618;84,5522199119252
621;84,9912716249269
624;85,2909990223796
627;85,8138644536198
630;86,4282277261491
633;86,9291123625885
636;87,3591222812419
639;87,9170478498546
642;88,3170006971798
645;88,6792107116586
648;89,062587075648
651;89,4531469107919
654;89,709547104216
657;89,9959924224314
660;90,3203532499638
663;90,5246182414917
666;90,5032213115105
669;90,2388250850551
672;90,4413477491726
675;90,4002800754105
678;90,2999110394354
681;90,205481249253
684;89,964097076409
687;89,6516487649557
690;89,3713793153198
693;89,0301210315774
696;88,5946608136678
699;88,1823623104519
702;87,7406718863434
705;87,2910739843542
708;86,7867564139595
711;86,2915979026622
714;85,7854632105704
717;85,2733790430215
720;84,7401728290158
723;84,3090694026903
726;83,8572070288426
729;83,4282508006089
732;83,0435140444531
735;82,7073363652009
738;82,4115597855183
741;82,1419959169246
744;81,9529125413356
747;81,7720331310181
750;81,6723799694734
753;81,61623325905
756;81,6244909213404
759;81,681155267615
762;81,7577761569978
765;81,9026397043486
768;82,1043316525573
771;82,3498864189204
774;82,6579825131838
777;82,9816848160498
780;83,349458557984
783;83,699240972994
786;84,1027122614944
789;84,523414235636
792;84,9453982433497
795;85,3815064363488
798;85,8473605177292
801;86,2657241128018
804;86,6831767374676
807;87,0915832012949
810;87,4732109795835
813;87,8532892427667
816;88,1974605197051
819;88,5082157875141
822;88,7604642273451
825;88,9849634734931
828;89,1806014128081
831;89,331899021031
834;89,4473922704446
837;89,5093002555801
840;89,5202443155999
843;89,4811393043758
846;89,3814014308772
849;89,2152830263698
852;89,0623543708372
855;88,8601888876778
858;88,6111489245632
861;88,3316843270292
864;88,0086587070753
867;87,6481989899154
870;87,2523937494453
873;86,8573483320844
876;86,4511216055426
879;86,0382051879328
882;85,6193097969748
885;85,1934937813862
888;84,769136052765
891;84,381474563004
894;84,0052257734658
897;83,6329008009601
900;83,2939765184012
903;82,9991104257869
906;82,7373383570512
909;82,5100716079603
912;82,3362940684957
915;82,1884831933418
918;82,0713483979652
921;82,0378578356182
924;82,0366166684134
927;82,0580869100428
930;82,1331982624386
933;82,2495603837476
936;82,4088186865362
939;82,6058030388487
942;82,8265500548908
945;83,0765305250891
948;83,359071147017
951;83,6325268707321
954;83,9438556251776
957;84,2907394763392
960;84,6356185156571
963;84,9797716621224
966;85,327955341973
969;85,6577215321177
972;85,9595461815037
975;86,2905372379341
978;86,607681451704
981;86,8880991776872
984;87,1497300356426
987;87,362831121836
990;87,572701219994
993;87,7432184056057
996;87,8719045265468
999;87,9669396881695
1002;88,0280876641324
1005;88,0239274274271
1008;87,9908890888423
1011;87,886804323024
1014;87,7591332099908
1017;87,606164935549
1020;87,4508993575053
1023;87,338490813557
1026;87,2193493939716
1029;87,0423953995021
1032;86,8313657685977
1035;86,599675552724
1038;86,3337709516922
1041;86,0277057601238
1044;85,7308595721286
1047;85,4389773569053
1050;85,120967395088
1053;84,7989408107002
1056;84,4978971213124
1059;84,2045848435502
1062;83,8959971345395
1065;83,629003771488
1068;83,359501323846
1071;83,0928606294314
1074;82,819929431534
1077;82,6564649926327
1080;82,5909406708407
1083;82,5094810284081
1086;82,4403570160336
1089;82,3808870058028
1092;82,3512434249428
1095;82,3611496455611
1098;82,4116497426443
1101;82,4762313053175
1104;82,5799396444296
1107;82,7161714363242
1110;82,8928460197954
1113;83,0899126333573
1116;83,293104817799
1119;83,5215764006188
1122;83,7650664010343
1125;84,018414083923
1128;84,2828890537196
1131;84,5584988717562
1134;84,8189906078022
1137;85,0388136579953
1140;85,1878866522296
1143;85,3874869093186
1146;85,7493967681954
1149;86,0707606459716
1152;86,3193689354672
1155;86,518038210817
1158;86,6873452495608
1161;86,8445424427763
1164;86,9669711506224
1167;87,0514802083184
1170;87,1296934869034
1173;87,1857895976409
1176;87,1628494682051
1179;87,0022869145719
1182;86,9710580234606
1185;87,0999148043856
1188;87,0497474446408
1191;86,9554690623939
1194;86,8315848168805
1197;86,6742928888964
1200;86,5147599648254
1203;86,3259623017304
1206;86,1291638107653
1209;85,907873606255
1212;85,6708306443614
1215;85,4443426716048
1218;85,1989503741556
1221;84,9633367474167
1224;84,7338541712217
1227;84,4884094045208
1230;84,2599541817526
1233;84,037681732906
1236;83,8383601248714
1239;83,6321362250713
1242;83,446175825937
1245;83,2881222254911
1248;83,1487136804923
1251;83,0384981719645
1254;82,9544387714192
1257;82,8743098906902
1260;82,8096393551497
1263;82,7998929014754
1266;82,8288874338624
1269;82,8736894513392
1272;82,9452430873578
1275;83,0245856311556
1278;83,1338714500418
1281;83,2426812788115
1284;83,3716591324804
1287;83,5233828193721
1290;83,6828559167891
1293;83,8378919773135
1296;84,0195844546987
1299;84,2091558060442
1302;84,3850429234313
1305;84,5747184355451
1308;84,7762066673907
1311;84,9566262869567
1314;85,1308197134594
1317;85,3026778778192
1320;85,4500775714823
1323;85,6021974890764
1326;85,7495016720964
1329;85,8813096521354
1332;85,9786316345201
1335;86,0954532087266
1338;86,1960340665301
1341;86,2116708373095
1344;86,2393064892508
1347;86,2741055433073
1350;86,2909311748655
1353;86,2772589736793
1356;86,2518465656992
1359;86,2229849123192
1362;86,1735956546756
1365;86,0826550227679
1368;85,9677756845728
1371;85,8422953449674
1374;85,6970879635924
1377;85,5251835564149
1380;85,2762997747803
1383;84,7997566452446
1386;84,6924234255444
1389;84,8814023291302
1392;84,8335342464986
1395;84,7073144429332
1398;84,5520652434761
1401;84,3847892320929
1404;84,2315364664239
1407;84,0931615098304
1410;83,9378539186432
1413;83,8281126278326
1416;83,7063358575268
1419;83,6058701749472
1422;83,5230001703245
1425;83,4368999307626
1428;83,3843732431786
1431;83,3486790726652
1434;83,3081895808756
1437;83,3077156445149
1440;83,3130213885485
1443;83,3127044016063
1446;83,3280377245139
1449;83,3563718402112
1452;83,3989243180243
1455;83,4943374560869
1458;83,5229616973089
1461;83,5601330705336
1464;83,629641354221
1467;83,7215252820969
1470;83,8619858490105
1473;83,9906229384877
1476;84,1659542759326
1479;84,3420751947602
1482;84,4969267303573
1485;84,6497519680832
1488;84,8051225157073
1491;84,8986437720225
1494;85,0385467350419
1497;85,1342537065419
1500;85,2301957578891
1503;85,362586266848
1506;85,47576326574
1509;85,5085837458948
1512;85,5906686380106
1515;85,6513385450859
1518;85,6997098478691
1521;85,7267688597717
1524;85,7252770271846
1527;85,7188944475299
1530;85,6858469194956
1533;85,6052866613777
1536;85,4723581943255
1539;85,3349600206082
1542;85,3168772290959
1545;85,3330266878139
1548;85,3251474639405
1551;85,3090478791587
1554;85,2245122783694
1557;85,1084146487564
1560;85,0867500038923
1563;84,8929717484949
1566;84,7193949709458
1569;84,5267665267224
1572;84,318773150584
1575;84,0451938523876
1578;83,9248401905373
1581;83,7355204941756
1584;83,6442530047041
1587;83,7166389119708
1590;83,7999198348277
1593;83,8272858244742
1596;83,807669988319
1599;83,7635510911642
1602;83,7246750291085
1605;83,6771136078839
1608;83,6350248602684
1611;83,6004916632673
1614;83,5770776918468
1617;83,5335571987192
1620;83,5180605241694
1623;83,5530093776836
1626;83,6044425616506
1629;83,6441133937084
1632;83,7112958621405
1635;83,7736321149862
1638;83,8018596576294
1641;83,8817373242148
1644;83,9877224630088
1647;84,0411297035775
1650;84,1735290057221
1653;84,2192044432572
1656;84,2603611106043
1659;84,4027293835761
1662;84,494160241901
1665;84,5702382618959
1668;84,709620879435
1671;84,7578935958556
1674;84,8738845700963
1677;84,9170731469704
1680;85,0301662368089
1683;85,1404281495215
1686;85,1384582471557
1689;85,2268071560002
1692;85,2797448776186
1695;85,3255746156064
1698;85,3843673108621
1701;85,406860572076
1704;85,4173821745434
1707;85,4277186264991
1710;85,421041910652
1713;85,3948657505001
1716;85,3677638533776
1719;85,3454621083436
1722;85,2693593967611
1725;85,2135274500355
1728;85,1574054658911
1731;85,1032043083652
1734;85,0670274240873
1737;85,0113371466446
1740;84,9255759569802
1743;84,8738140613333
1746;84,7965110387481
1749;84,7283826757938
1752;84,6903019114179
1755;84,5825836918593
1758;84,4961916979517
1761;84,3967174691447
1764;84,3267721139222
1767;84,2236598453958
1770;84,1521489154445
1773;84,0876500839663
1776;84,0084987346818
1779;83,9322111158843
1782;83,875682890538
1785;83,8219854320156
1788;83,7806700346921
1791;83,7560507149974
1794;83,7141055227401
1797;83,6987955532517
1800;83,6884302512529
1803;83,6831221464032
1806;83,6987202727031
1809;83,7273611010282
1812;83,7520804316058
1815;83,7946831602446
1818;83,851916643044
1821;83,9161536723472
1824;83,9999610384645
1827;84,0657025877581
1830;84,1351037118549
1833;84,2178628792392
1836;84,3201999883791
1839;84,4210019806205
1842;84,542242912404
1845;84,6097879892896
1848;84,715924492007
1851;84,8075468106846
1854;84,9042246871914
1857;84,9984461961926
1860;85,0878316147441
1863;85,1777577093544
1866;85,2591494528932
1869;85,3292470233922
1872;85,3916606778529
1875;85,4341365635539
1878;85,4756746074779
1881;85,5129584191312
1884;85,5282678152426
1887;85,5339324032488
1890;85,5400523760308
1893;85,5227240534724
1896;85,4909584084051
1899;85,4602407498357
1902;85,414853535072
1905;85,3470750380265
1908;85,2789867522088
1911;85,2173483791955
1914;85,1318461012118
1917;85,037339816417
1920;84,9617323485865
1923;84,8514316856324
1926;84,7510144980118
1929;84,654845241552
1932;84,5494442911057
1935;84,4394911917278
1938;84,3384096331628
1941;84,243248161332
1944;84,1563578775081
1947;84,0598788152429
1950;83,9671732390034
1953;83,8969093896697
1956;83,8321178373922
1959;83,7687713809459
1962;83,7286719935742
1965;83,6959823789125
1968;83,6581944722184
1971;83,6386451637088
1974;83,633895597017
1977;83,6353071242947
1980;83,6511545584973
1983;83,678038307388
1986;83,7140760096245
1989;83,7624868358202
1992;83,8091956920355
1995;83,8709366865493
1998;83,9373459055254
2001;84,0006937204796
2004;84,1019677895841
2007;84,1945265342713
2010;84,2794713142541
2013;84,3804115127583
2016;84,4877168971712
2019;84,5805450266398
2022;84,6721893064651
2025;84,7835294726791
2028;84,8837765477272
2031;84,9781073217716
2034;85,0693107861532
2037;85,1517765556334
2040;85,2260544267062
2043;85,2943977329752
2046;85,3512272136962
2049;85,3992062308529
2052;85,4347764644337
2055;85,4601439465694
2058;85,4788223176323
2061;85,4837381960824
2064;85,4731635466646
2067;85,4665322507624
2070;85,4423593758369
2073;85,3980699309264
2076;85,3471368198211
2079;85,2970124553255
2082;85,2274183832976
2085;85,1463561718271
2088;85,068491238051
2091;84,9799908400989
2094;84,8902349420416
2097;84,7884454143946
2100;84,696214692285
2103;84,599773824922
2106;84,484726158587
2109;84,3917076952834
2112;84,3001271166762
2115;84,2085581324009
2118;84,1142902357876
2121;84,0254226510492
2124;83,9517896490534
2127;83,879429874391
2130;83,8126463680268
2133;83,7705452375509
2136;83,7315746726602
2139;83,6918668301796
2142;83,6741979471036
2145;83,6680179804694
2148;83,6630726868958
2151;83,6741063416875
2154;83,6952768488203
2157;83,7263924546088
2160;83,7652713298462
2163;83,812881774436
2166;83,8716219598025
2169;83,9366927388899
2172;84,00325927797
2175;84,0786324004292
2178;84,1669218818798
2181;84,2589622742582
2184;84,3586000861736
2187;84,4538570948571
2190;84,5439077741552
2193;84,6317238143928
2196;84,7291099828005
2199;84,8167813275289
2202;84,9025961004764
2205;84,9851703864676
2208;85,0582691378696
2211;85,1268883668957
2214;85,1944917075964
2217;85,2522330285039
2220;85,2990249028346
2223;85,3330785554939
2226;85,3624791239394
2229;85,3786763608881
2232;85,3920168638888
2235;85,3942473921388
2238;85,3812225129682
2241;85,3565822674474
2244;85,3183915243202
2247;85,2766325440461
2250;85,2224236839046
2253;85,1656715210022
2256;85,0986362772579
2259;85,0264187812784
2262;84,9466064136094
2265;84,8660730671554
2268;84,7787758330016
2271;84,688407614833
2274;84,5960563925218
2277;84,5116577654184
2280;84,4251055855582
2283;84,335361074388
2286;84,2418083821036
2289;84,1562056529471
2292;84,0710746651885
2295;83,9843245527379
2298;83,8897246882695
2301;83,816292945809
2304;83,7444823993774
2307;83,6829237567586
2310;83,6327207584394
2313;83,5838351492822
2316;83,5577418277461
2319;83,5029225635808
2322;83,4743369518006
2325;83,5236651095246
2328;83,5402989021581
2331;83,545559465766
2334;83,6259118205538
2337;83,6819065488974
2340;83,7277739701064
2343;83,7204810096253
2346;83,7925494545595
2349;83,9122441914284
2352;83,9847081863198
2355;84,0419388805276
2358;84,1396434734646
2361;84,2146750369053
2364;84,3171073401776
2367;84,3882540913456
2370;84,4851338224359
2373;84,5957108492045
2376;84,7057259586439
2379;84,8221028762726
2382;85,0075477378128
2385;85,0640799821922
2388;85,109182228857
2391;85,1526199458264
2394;85,1818743198372
2397;85,2115170024855
2400;85,2229667041329
2403;85,2260313364685
2406;85,2280017731468
2409;85,2171032974373
2412;85,1997566074785
2415;85,1758945518181
2418;85,1404827451664
2421;85,0987260571787
2424;85,0440626652992
2427;84,9899650323966
2430;84,929255465002
2433;84,8646510749262
2436;84,7968915632264
2439;84,7214824147686
2442;84,6514050393568
2445;84,583563175149
2448;84,5051731031956
2451;84,4301771477188
2454;84,3610903021328
2457;84,293277474331
2460;84,2363429429756
2463;84,1685632572216
2466;84,1121294760622
2469;84,0700433765263
2472;84,0263280798778
2475;83,9952764235411
2478;83,9721411425676
2481;83,9531919994061
2484;83,9407408834132
2487;83,945141174324
2490;83,9462087999189
2493;83,9617906353484
2496;83,9836144071234
2499;84,0026915134916
2502;84,0267380803756
2505;84,0659453826948
2508;84,0956740568261
2511;84,1378499727101
2514;84,1865768797914
2517;84,2403224270795
2520;84,2924848445057
2523;84,3444406978105
2526;84,4081038604337
2529;84,4768821187571
2532;84,5312241231505
2535;84,5879698772475
2538;84,6486991347961
2541;84,708741873307
2544;84,7624204374406
2547;84,812050659981
2550;84,8613529089118
2553;84,9152082377699
2556;84,9559038446197
2559;84,990536419987
2562;85,017411036607
2565;85,0299988330183
2568;85,0550763470799
2571;85,0630307528126
2574;85,0659042084566
2577;85,0650777781866
2580;85,0599408939783
2583;85,0396498976647
2586;85,0209364517732
2589;84,9928904345166
2592;84,9581848718245
2595;84,9177271902621
2598;84,879500954415
2601;84,8303390778434
2604;84,7814237123457
2607;84,7300792646785
2610;84,6771425532425
2613;84,6165518738975
2616;84,5590363964074
2619;84,5042472775108
2622;84,4460034630576
2625;84,3845850220006
2628;84,3389188558456
2631;84,2846803144177
2634;84,2440488712178
2637;84,2037234597864
2640;84,1735241698855
2643;84,1448134298354
2646;84,1129347637465
2649;84,0939816080542
2652;84,0787625073264
2655;84,0628002601094
2658;84,0558458470002
2661;84,0521465623866
2664;84,0635946078008
2667;84,0703835840425
2670;84,0719624715949
2673;84,0820561655089
2676;84,0999626158156
2679;84,1192492533336
2682;84,1556401966659
2685;84,1954404479795
2688;84,2262066893936
2691;84,2546348744165
2694;84,293243342252
2697;84,3398161147706
2700;84,3726942638471
2703;84,413768461248
2706;84,4602074391225
2709;84,5023632219046
2712;84,5475875084717
2715;84,5825278772711
2718;84,6180782707956
2721;84,6385650301667
2724;84,6672276690945
2727;84,6980787148488
2730;84,7467306821523
2733;84,7664962224677
2736;84,7797442067454
2739;84,7985432207463
2742;84,8104523417806
2745;84,8177431686265
2748;84,8056993605124
2751;84,8072991807548
2754;84,8087708749186
2757;84,8015576891771
2760;84,7829643377358
2763;84,7631495139356
2766;84,7383643797048
2769;84,7189326515615
2772;84,6911492527684
2775;84,6423944096223
2778;84,6320173280126
2781;84,6063795986549
2784;84,5717126811739
2787;84,518580352953
2790;84,4642786976226
2793;84,4499945174213
2796;84,4087737026435
2799;84,3552651098679
2802;84,3467589004128
2805;84,321684183289
2808;84,2796936438314
2811;84,2446443182488
2814;84,2352287994993
2817;84,2004687529884
2820;84,1682478391642
2823;84,1478972904582
2826;84,1276664434888
2829;84,1071424828858
2832;84,0719456824467
2835;84,0210024948443
2838;83,9231155851512
2841;83,8871636224573
2844;83,7483629639008
2847;83,3758154183642
2850;83,2131476385584
2853;83,4960729581574
2856;83,7310187203888
2859;83,8288664766594
2862;83,9178440111584
2865;83,9890782547076
2868;84,0376486903769
2871;84,0370902734078
2874;84,0139170277124
2877;84,112430320113
2880;84,1496087542859
2883;84,1727393439147
2886;84,1821610393904
2889;84,177671204686
2892;84,171470484827
2895;84,1367256918438
2898;84,1404888230469
2901;84,1312710513094
2904;84,0948803301736
2907;84,0315807389736
2910;83,8476661945463
2913;83,465977937373
2916;83,1964567766153
2919;83,2483391581831
2922;83,4903421115182
2925;83,7187569030169
2928;83,8742097358235
2931;84,0225956754494
2934;84,1905375134443
2937;84,2759785348073
2940;84,3124350834721
2943;84,2782774909208
2946;84,2781719945318
2949;84,3340090191463
2952;84,3021287270171
2955;84,290705779531
2958;84,2890738798926
2961;84,2864402126088
2964;84,3051227852503
2967;84,3458523987414
2970;84,3654985132803
2973;84,3392413232249
2976;84,3234003638325
2979;84,3100135924136
2982;84,3137318766111
2985;84,3273821459402
2988;84,3179879215023
2991;84,2509533705911
2994;84,2322929925699
2997;84,2222456549805
3000;84,2371276512908
3003;84,2345164970766
3006;84,2150407962485
3009;84,1585358739007
3012;84,0560161846791
3015;84,0667045231557
3018;84,1294493437769
3021;84,1534312356648
3024;84,1446541552091
3027;84,1723825581916
3030;84,1656568903198
3033;84,1251411433345
3036;84,1494039470691
3039;84,1658278494819
3042;84,1023908485466
3045;84,1500496134992
3048;84,2083057397385
3051;84,1958378464325
3054;84,2366632947487
3057;84,26648228004
3060;84,31239737682
3063;84,3161711587393
3066;84,2901679536334
3069;84,3217172152057
3072;84,3916519803234
3075;84,3843926837148
3078;84,2970324818496
3081;84,3208934980422
3084;84,3578007442883
3087;84,431057232188
3090;84,444644896121
3093;84,5135013785642
3096;84,5515014769464
3099;84,523363741425
3102;84,5444218383604
3105;84,5680409846259
3108;84,5112282621884
3111;84,5495302968619
3114;84,4994933251287
3117;84,3993723480941
3120;84,4107123205604
3123;84,5239853351722
3126;84,5627797542335
3129;84,52907951682
3132;84,5353512224604
3135;84,5286147532888
3138;84,4444956197028
3141;84,4352540259781
3144;84,4692553795119
3147;84,461498974295
3150;84,3801338882964
3153;84,2862862777272
3156;84,3654652104412
3159;84,3661768048762
3162;84,347343955691
3165;84,326006310671
3168;84,3035825001275
3171;84,28308865828
3174;84,2593683975706
3177;84,2413926686911
3180;84,2174421801582
3183;84,2013623067034
3186;84,1927420987151
3189;84,1698580654978
3192;84,1573648110427
3195;84,150560917094
3198;84,1332872859279
3201;84,1184349922784
3204;84,1040499243321
3207;84,10522447818
3210;84,1068601759014
3213;84,0955357069854
3216;84,1037302958214
3219;84,1075629968092
3222;84,1208459543986
3225;84,1288628053343
3228;84,1448852146823
3231;84,1016204633471
3234;84,0494503849762
3237;84,1703097681233
3240;84,2105813998244
3243;84,217147245757
3246;84,1781097895553
3249;84,2280835895502
3252;84,2819730974976
3255;84,2670329326667
3258;84,3201383419361
3261;84,3652984360855
3264;84,3748676570188
3267;84,3766269418826
3270;84,2868597845026
3273;84,3256117859582
3276;84,3859148336784
3279;84,4452721633213
3282;84,4629413528536
3285;84,4555355802912
3288;84,4542396863817
3291;84,3797929367028
3294;84,3595634456398
3297;84,3880170224818
3300;84,4329224160808
3303;84,3429139046386
3306;84,1968499605274
3309;84,2672987765851
3312;84,3625365263543
3315;84,3701320580782
3318;84,3499832325747
3321;84,329723919713
3324;84,2629159723243
3327;84,2368489599358
3330;84,2486530076773
3333;84,2197885232895
3336;84,1489540257866
3339;84,0713461203921
3342;84,0867864190314
3345;84,0963208964774
3348;84,0453996307909
3351;83,951815177542
3354;84,0154572271655
3357;84,0077895715419
3360;83,9525131922073
3363;83,9410498787574
3366;83,8565969734136
3369;83,7563778630744
3372;83,8254233288056
3375;83,8634240906997
3378;83,85429731348
3381;83,8468178539405
3384;83,8594495307147
3387;83,863078675772
3390;83,7639875256089
3393;83,7434205518671
3396;83,8349131366922
3399;83,7315666946562
3402;83,7207820312559
3405;83,8747823516
3408;83,8853998463828
3411;83,8757640140609
3414;83,9012056881433
3417;83,9605654867257
3420;83,9625790648152
3423;83,9820020887428
3426;83,9826147609914
3429;83,9446046584916
3432;83,9341460310423
3435;83,8864933821971
3438;83,9569281265246
3441;84,0470272627577
3444;84,0739600611717
3447;84,0957945190411
3450;84,1295972922926
3453;84,1317035373736
3456;84,1396098656105
3459;84,122347242957
3462;84,1369231273961
3465;84,1034308799901
3468;84,0241817403744
3471;84,1042430121494
3474;84,158522920835
3477;84,1365125223614
3480;84,0882295100528
3483;84,1426101961144
3486;84,1239722276328
3489;84,1248048735216
3492;84,1276845574992
3495;84,0961345177275
3498;84,0740482540886
3501;84,0550560344092
3504;84,0457216664216
3507;84,0858989810799
3510;84,0778984699443
3513;84,0174521987951
3516;84,0200827366674
3519;84,0103346784266
3522;83,9488309498659
3525;83,9296173155904
3528;83,9638752009205
3531;83,9403635754546
3534;83,8960795256992
3537;83,8550822577383
3540;83,8687605480326
3543;83,7912355901938
3546;83,7656139863971
3549;83,8362211733517
3552;83,8367272235542
3555;83,851812975754
3558;83,8515836172999
3561;83,8400194650053
3564;83,8777312361904
3567;83,9052677400675
3570;83,8801845540471
3573;83,9298329739195
3576;83,9659557655755
3579;83,9759520782623
3582;83,9662475956658
3585;83,9433038636152
3588;84,0499423615947
3591;84,0971937647038
3594;84,1384960562862
3597;84,1698607424948
3600;84,18970210564
3603;84,220117176467
3606;84,2389132054451
3609;84,2999818031383
3612;84,3311199042132
3615;84,3379063963222
3618;84,3440805366239
3621;84,3754010351638
3624;84,4184077881936
3627;84,4152088478354
3630;84,50403652028
3633;84,4995994003763
3636;84,5088809115516
3639;84,518645184325
3642;84,5259454914055
3645;84,4890981857166
3648;84,4731083726138
3651;84,4827944176762
3654;84,4937254091051
3657;84,4762599369535
3660;84,432807572301
3663;84,4573887040137
3666;84,4248635717417
3669;84,4000388302678
3672;84,359407721328
3675;84,3070221784154
3678;84,2854679136656
3681;84,3083938037472
3684;84,2879473600785
3687;84,1661054978769
3690;84,1287251256924
3693;84,1757924387267
3696;84,1424220834559
3699;84,1176993873622
3702;84,0836005223582
3705;84,0719158602179
3708;84,0487988091832
3711;84,0322488966144
3714;83,9948177207804
3717;83,9932468539114
3720;83,9798634842578
3723;83,9717844889476
3726;83,9795737675696
3729;83,9776896433041
3732;83,9802993383789
3735;83,9673200454492
3738;83,9324780350843
3741;83,9906664663285
3744;84,0042068565701
3747;84,0346690284426
3750;84,0826779385886
3753;84,1164104845929
3756;84,1312734316182
3759;84,140176208386
3762;84,1730390137297
3765;84,2111811970563
3768;84,2273203109769
3771;84,2647161077405
3774;84,3087196303984
3777;84,3063427691582
3780;84,3205606132885
3783;84,3725423757155
3786;84,4054603044047
3789;84,4162819116796
3792;84,4364239356705
3795;84,4521952960866
3798;84,4540669579476
3801;84,4865950820575
3804;84,504251473121
3807;84,502417339104
3810;84,5173728175878
3813;84,4994151636741
3816;84,515005890005
3819;84,473727849391
3822;84,5076282313047
3825;84,4982873003469
3828;84,4711846932782
3831;84,4539052440073
3834;84,4232154284396
3837;84,3826569247483
3840;84,4174044910593
3843;84,3886778538166
3846;84,3435336921631
3849;84,3134731233259
3852;84,2848491445791
3855;84,2417393518949
3858;84,2276227489028
3861;84,2022921062028
3864;84,1894207363043
3867;84,1330543859366
3870;84,1045566196024
3873;84,0839557380581
3876;84,0498536622218
3879;84,020550193947
3882;83,9928544482164
3885;83,9772139484158
3888;83,9684153296424
3891;83,9564566245807
3894;83,9774253468533
3897;83,9756235178751
3900;83,9671998387459
3903;83,9821933273407
3906;83,9875037362784
3909;83,9988123034918
3912;84,0059244863772
3915;84,0300046738966
3918;84,0508080262996
3921;84,066707188174
3924;84,0926564057332
3927;84,1218203157366
3930;84,1404349655535
3933;84,1488906183847
3936;84,1788367813961
3939;84,219349971064
3942;84,240694701014
3945;84,2616351406608
3948;84,2909007481925
3951;84,2951389333234
3954;84,3158844690988
3957;84,3391733109977
3960;84,3701189109129
3963;84,3863815142182
3966;84,3981039040786
3969;84,4154630955922
3972;84,4111305891032
3975;84,4111710657832
3978;84,4175333554895
3981;84,4419281044316
3984;84,4243850766896
3987;84,4330236904183
3990;84,4613792398697
3993;84,4509189957374
3996;84,4251284353546
3999;84,41394263671
4000;84,4135751532995