File: FT-IR/Gruppe2A/polyethylen.dat
#Datum: 21.01.2016 16:19:44
#Quelle: polyethylen

#Daten:
cm-1;%T
630;90,0484390258789
635;92,3275680541992
640;92,7074203491211
645;92,7074203491211
650;93,087272644043
655;92,3275680541992
660;92,3275680541992
665;92,7074203491211
670;92,3275680541992
675;91,9477081298828
680;91,9477081298828
685;92,3275680541992
690;91,5678634643555
695;90,4282989501953
700;89,2887344360352
705;86,2499084472656
710;78,6528244018555
715;58,1407165527344
720;48,6443672180176
725;60,0399856567383
730;61,9392547607422
735;78,6528244018555
740;94,606689453125
745;95,3663940429688
750;96,5059585571289
755;96,8858184814453
760;96,8858184814453
765;96,5059585571289
770;96,8858184814453
775;97,2656631469726
780;98,0253753662109
785;98,0253753662109
790;97,6455230712891
795;97,6455230712891
800;98,0253753662109
805;98,4052276611328
810;98,7850799560547
815;98,7850799560547
820;98,0253753662109
825;96,8858184814453
830;96,126106262207
835;96,8858184814453
840;97,6455230712891
845;98,0253753662109
850;98,0253753662109
855;98,4052276611328
860;98,0253753662109
865;97,6455230712891
870;97,2656631469726
875;97,6455230712891
880;97,6455230712891
885;96,8858184814453
890;96,8858184814453
895;96,8858184814453
900;96,8858184814453
905;95,7462463378906
910;95,3663940429688
915;96,5059585571289
920;97,2656631469726
925;97,2656631469726
930;97,2656631469726
935;97,6455230712891
940;98,0253753662109
945;98,4052276611328
950;98,4052276611328
955;98,0253753662109
960;97,6455230712891
965;98,0253753662109
970;98,0253753662109
975;98,0253753662109
980;98,0253753662109
985;97,6455230712891
990;97,2656631469726
995;97,6455230712891
1000;98,0253753662109
1005;98,4052276611328
1010;98,7850799560547
1015;98,7850799560547
1020;98,4052276611328
1025;98,0253753662109
1030;98,0253753662109
1035;98,0253753662109
1040;97,6455230712891
1045;97,6455230712891
1050;97,2656631469726
1055;97,6455230712891
1060;97,6455230712891
1065;97,6455230712891
1070;98,0253753662109
1075;98,0253753662109
1080;97,6455230712891
1085;97,6455230712891
1090;98,0253753662109
1095;98,0253753662109
1100;98,0253753662109
1105;98,0253753662109
1110;97,6455230712891
1115;97,2656631469726
1120;96,8858184814453
1125;96,8858184814453
1130;97,2656631469726
1135;96,8858184814453
1140;96,5059585571289
1145;96,5059585571289
1150;96,5059585571289
1155;96,5059585571289
1160;96,126106262207
1165;96,5059585571289
1170;96,5059585571289
1175;96,5059585571289
1180;96,5059585571289
1185;96,126106262207
1190;96,126106262207
1195;96,126106262207
1200;95,7462463378906
1205;95,7462463378906
1210;95,7462463378906
1215;95,3663940429688
1220;95,3663940429688
1225;95,3663940429688
1230;95,3663940429688
1235;95,7462463378906
1240;96,8858184814453
1245;98,0253753662109
1250;98,4052276611328
1255;98,7850799560547
1260;99,544792175293
1265;99,544792175293
1270;99,1649322509766
1275;99,1649322509766
1280;99,1649322509766
1285;99,1649322509766
1290;98,7850799560547
1295;98,7850799560547
1300;98,4052276611328
1305;98,4052276611328
1310;98,4052276611328
1315;98,7850799560547
1320;98,7850799560547
1325;99,1649322509766
1330;99,544792175293
1335;99,544792175293
1340;99,1649322509766
1345;98,7850799560547
1350;98,4052276611328
1355;98,0253753662109
1360;97,6455230712891
1365;97,2656631469726
1370;97,2656631469726
1375;98,0253753662109
1380;98,7850799560547
1385;99,9246444702148
1390;99,9246444702148
1395;99,9246444702148
1400;99,9246444702148
1405;99,9246444702148
1410;99,9246444702148
1415;99,544792175293
1420;99,1649322509766
1425;97,6455230712891
1430;95,7462463378906
1435;93,4671249389648
1440;92,3275680541992
1445;91,1880035400391
1450;88,149169921875
1455;79,0326843261719
1460;61,1795463562012
1465;55,1018867492676
1470;51,6831970214844
1475;62,3191070556641
1480;90,4282989501953
1485;98,4052276611328
1490;99,1649322509766
1495;100,684349060059
1500;101,823913574219
1505;102,203773498535
1510;102,583618164062
1515;102,963478088379
1520;102,963478088379
1525;103,343330383301
1530;103,343330383301
1535;103,343330383301
1540;103,343330383301
1545;103,343330383301
1550;103,343330383301
1555;103,343330383301
1560;103,723182678223
1565;103,343330383301
1570;103,343330383301
1575;102,963478088379
1580;102,583618164062
1585;101,823913574219
1590;100,684349060059
1595;99,9246444702148
1600;99,544792175293
1605;99,9246444702148
1610;101,06420135498
1615;102,203773498535
1620;102,583618164062
1625;102,963478088379
1630;102,963478088379
1635;102,963478088379
1640;102,963478088379
1645;102,963478088379
1650;102,963478088379
1655;102,963478088379
1660;102,963478088379
1665;102,963478088379
1670;102,963478088379
1675;102,963478088379
1680;102,963478088379
1685;102,963478088379
1690;102,963478088379
1695;103,343330383301
1700;102,963478088379
1705;102,963478088379
1710;102,963478088379
1715;102,963478088379
1720;102,963478088379
1725;103,343330383301
1730;103,723182678223
1735;103,723182678223
1740;104,103034973145
1745;104,103034973145
1750;104,482887268066
1755;104,482887268066
1760;104,482887268066
1765;104,103034973145
1770;103,723182678223
1775;103,343330383301
1780;103,343330383301
1785;103,343330383301
1790;103,343330383301
1795;103,343330383301
1800;103,343330383301
1805;103,343330383301
1810;103,343330383301
1815;103,343330383301
1820;103,343330383301
1825;103,723182678223
1830;103,723182678223
1835;103,723182678223
1840;103,723182678223
1845;103,723182678223
1850;103,723182678223
1855;103,723182678223
1860;103,723182678223
1865;103,723182678223
1870;104,103034973145
1875;104,103034973145
1880;103,723182678223
1885;103,723182678223
1890;103,723182678223
1895;103,343330383301
1900;103,723182678223
1905;103,723182678223
1910;103,723182678223
1915;104,103034973145
1920;104,103034973145
1925;104,103034973145
1930;104,103034973145
1935;104,103034973145
1940;104,482887268066
1945;104,482887268066
1950;104,482887268066
1955;104,482887268066
1960;104,482887268066
1965;104,482887268066
1970;104,482887268066
1975;104,482887268066
1980;104,482887268066
1985;104,862747192383
1990;104,482887268066
1995;104,482887268066
2000;104,482887268066
2005;104,482887268066
2010;104,103034973145
2015;104,103034973145
2020;104,103034973145
2025;104,103034973145
2030;104,103034973145
2035;104,103034973145
2040;104,482887268066
2045;104,482887268066
2050;104,482887268066
2055;104,482887268066
2060;104,482887268066
2065;104,482887268066
2070;104,482887268066
2075;104,482887268066
2080;104,482887268066
2085;104,482887268066
2090;104,482887268066
2095;104,482887268066
2100;104,482887268066
2105;104,482887268066
2110;104,482887268066
2115;104,482887268066
2120;104,482887268066
2125;104,482887268066
2130;104,482887268066
2135;104,482887268066
2140;104,482887268066
2145;104,482887268066
2150;104,103034973145
2155;104,103034973145
2160;104,103034973145
2165;104,482887268066
2170;104,103034973145
2175;104,103034973145
2180;104,103034973145
2185;104,103034973145
2190;104,103034973145
2195;104,103034973145
2200;104,103034973145
2205;104,103034973145
2210;104,103034973145
2215;104,103034973145
2220;104,103034973145
2225;104,103034973145
2230;104,103034973145
2235;104,103034973145
2240;104,103034973145
2245;104,103034973145
2250;104,103034973145
2255;103,723182678223
2260;103,723182678223
2265;103,723182678223
2270;103,723182678223
2275;103,723182678223
2280;103,723182678223
2285;103,723182678223
2290;103,723182678223
2295;103,723182678223
2300;103,723182678223
2305;103,723182678223
2310;103,723182678223
2315;103,343330383301
2320;103,343330383301
2325;103,343330383301
2330;103,343330383301
2335;103,343330383301
2340;103,343330383301
2345;103,343330383301
2350;103,723182678223
2355;103,723182678223
2360;104,103034973145
2365;104,103034973145
2370;104,103034973145
2375;104,103034973145
2380;104,103034973145
2385;104,103034973145
2390;104,103034973145
2395;104,103034973145
2400;104,103034973145
2405;104,103034973145
2410;104,103034973145
2415;104,103034973145
2420;104,103034973145
2425;103,723182678223
2430;103,723182678223
2435;104,103034973145
2440;104,103034973145
2445;103,723182678223
2450;103,723182678223
2455;103,723182678223
2460;103,723182678223
2465;103,723182678223
2470;103,723182678223
2475;103,723182678223
2480;103,723182678223
2485;103,343330383301
2490;103,343330383301
2495;103,343330383301
2500;103,343330383301
2505;103,343330383301
2510;103,343330383301
2515;103,343330383301
2520;102,963478088379
2525;102,963478088379
2530;102,963478088379
2535;102,963478088379
2540;102,583618164062
2545;102,583618164062
2550;102,203773498535
2555;102,203773498535
2560;102,203773498535
2565;101,823913574219
2570;101,823913574219
2575;101,823913574219
2580;101,823913574219
2585;101,444061279297
2590;101,444061279297
2595;101,06420135498
2600;101,06420135498
2605;100,684349060059
2610;100,684349060059
2615;100,304504394531
2620;99,9246444702148
2625;99,544792175293
2630;99,544792175293
2635;99,1649322509766
2640;99,1649322509766
2645;99,544792175293
2650;99,544792175293
2655;99,1649322509766
2660;99,1649322509766
2665;99,1649322509766
2670;99,1649322509766
2675;99,544792175293
2680;99,544792175293
2685;99,544792175293
2690;99,544792175293
2695;99,544792175293
2700;99,544792175293
2705;99,1649322509766
2710;99,1649322509766
2715;98,7850799560547
2720;98,7850799560547
2725;98,4052276611328
2730;98,4052276611328
2735;98,0253753662109
2740;98,0253753662109
2745;98,0253753662109
2750;97,6455230712891
2755;97,6455230712891
2760;97,2656631469726
2765;96,8858184814453
2770;96,126106262207
2775;95,7462463378906
2780;94,9865493774414
2785;94,2268371582031
2790;93,4671249389648
2795;92,3275680541992
2800;91,1880035400391
2805;90,0484390258789
2810;88,5290222167969
2815;87,0096130371094
2820;84,3506393432617
2825;80,9319534301758
2830;75,2341384887695
2835;64,218376159668
2840;42,566707611084
2845;19,7754707336426
2850;16,3567867279053
2855;31,5509433746338
2860;57,7608604431152
2865;71,0557479858398
2870;73,3348693847656
2875;69,1564788818359
2880;61,9392547607422
2885;53,9623222351074
2890;46,7450981140137
2895;40,2875785827637
2900;34,5897750854492
2905;26,2329883575439
2910;15,9769325256348
2915;11,0388317108154
2920;12,5582466125488
2925;23,1941566467285
2930;41,806999206543
2935;60,4198379516602
2940;76,7535552978516
2945;87,7693252563476
2950;93,4671249389648
2955;96,126106262207
2960;98,0253753662109
2965;99,9246444702148
2970;101,06420135498
2975;102,583618164062
2980;103,343330383301
2985;104,103034973145
2990;104,103034973145
2995;104,103034973145
3000;104,103034973145
3005;104,103034973145
3010;104,482887268066
3015;104,482887268066
3020;104,103034973145
3025;104,103034973145
3030;104,103034973145
3035;103,723182678223
3040;103,723182678223
3045;104,103034973145
3050;104,103034973145
3055;104,103034973145
3060;103,723182678223
3065;103,723182678223
3070;104,103034973145
3075;103,723182678223
3080;103,723182678223
3085;103,723182678223
3090;103,723182678223
3095;104,103034973145
3100;104,103034973145
3105;104,103034973145
3110;104,103034973145
3115;104,103034973145
3120;104,103034973145
3125;104,103034973145
3130;104,103034973145
3135;104,103034973145
3140;104,103034973145
3145;104,103034973145
3150;104,103034973145
3155;103,723182678223
3160;103,723182678223
3165;103,723182678223
3170;103,723182678223
3175;103,723182678223
3180;103,343330383301
3185;103,343330383301
3190;103,343330383301
3195;102,963478088379
3200;102,583618164062
3205;102,963478088379
3210;102,963478088379
3215;102,963478088379
3220;102,963478088379
3225;102,963478088379
3230;102,963478088379
3235;102,963478088379
3240;103,343330383301
3245;103,343330383301
3250;103,343330383301
3255;103,343330383301
3260;103,343330383301
3265;103,343330383301
3270;103,343330383301
3275;103,343330383301
3280;103,343330383301
3285;103,343330383301
3290;103,343330383301
3295;103,343330383301
3300;103,343330383301
3305;103,343330383301
3310;102,963478088379
3315;102,963478088379
3320;102,963478088379
3325;102,963478088379
3330;102,963478088379
3335;102,963478088379
3340;102,963478088379
3345;102,963478088379
3350;102,963478088379
3355;102,963478088379
3360;102,583618164062
3365;102,583618164062
3370;102,583618164062
3375;102,583618164062
3380;102,583618164062
3385;102,583618164062
3390;102,583618164062
3395;102,583618164062
3400;102,583618164062
3405;102,963478088379
3410;102,963478088379
3415;102,583618164062
3420;102,583618164062
3425;102,583618164062
3430;102,583618164062
3435;102,583618164062
3440;102,583618164062
3445;102,583618164062
3450;102,583618164062
3455;102,583618164062
3460;102,583618164062
3465;102,583618164062
3470;102,583618164062
3475;102,583618164062
3480;102,583618164062
3485;102,583618164062
3490;102,583618164062
3495;102,583618164062
3500;102,583618164062
3505;102,583618164062
3510;102,583618164062
3515;102,583618164062
3520;102,583618164062
3525;102,583618164062
3530;102,583618164062
3535;102,583618164062
3540;102,963478088379
3545;102,963478088379
3550;102,583618164062
3555;102,963478088379
3560;102,963478088379
3565;102,963478088379
3570;102,963478088379
3575;102,963478088379
3580;102,963478088379
3585;102,963478088379
3590;102,963478088379
3595;102,583618164062
3600;102,963478088379
3605;102,583618164062
3610;102,583618164062
3615;102,583618164062
3620;102,963478088379
3625;102,963478088379
3630;102,963478088379
3635;102,583618164062
3640;102,203773498535
3645;102,203773498535
3650;102,583618164062
3655;102,963478088379
3660;102,963478088379
3665;102,963478088379
3670;103,343330383301
3675;103,343330383301
3680;103,343330383301
3685;102,963478088379
3690;102,963478088379
3695;102,963478088379
3700;102,963478088379
3705;102,963478088379
3710;102,583618164062
3715;102,583618164062
3720;102,583618164062
3725;102,963478088379
3730;102,963478088379
3735;102,583618164062
3740;102,583618164062
3745;102,583618164062
3750;102,583618164062
3755;102,583618164062
3760;102,203773498535
3765;102,203773498535
3770;102,203773498535
3775;102,203773498535
3780;102,583618164062
3785;102,583618164062
3790;102,583618164062
3795;102,583618164062
3800;102,583618164062
3805;102,583618164062
3810;102,583618164062
3815;102,583618164062
3820;102,583618164062
3825;102,583618164062
3830;102,203773498535
3835;102,583618164062
3840;102,583618164062
3845;102,583618164062
3850;102,583618164062
3855;102,583618164062
3860;102,583618164062
3865;102,583618164062
3870;102,583618164062
3875;102,583618164062
3880;102,583618164062
3885;102,583618164062
3890;102,583618164062
3895;102,963478088379
3900;102,963478088379
3905;102,583618164062
3910;102,963478088379
3915;102,963478088379
3920;102,963478088379
3925;102,963478088379
3930;102,963478088379
3935;103,343330383301
3940;103,343330383301
3945;102,963478088379
3950;102,963478088379
3955;103,343330383301
3960;103,343330383301
3965;103,343330383301
3970;103,343330383301
3975;103,343330383301
3980;103,723182678223
3985;103,343330383301
3990;103,343330383301
3995;103,343330383301
4000;103,723182678223