File: FT-IR/Gruppe2A/tmp3.dat
#Datum: 21.01.2016 16:19:44
#Quelle: aluminium_spacer

#Daten:
#cm-1 %T
450 80.7607
453 81.8963
456 82.229
459 82.8119
462 83.6031
465 84.0823
468 84.6422
471 85.7171
474 86.9444
477 87.4594
480 88.0646
483 88.8585
486 89.2809
489 89.3706
492 89.7371
495 90.3371
498 90.4303
501 90.5584
504 90.9839
507 91.1243
510 90.7843
513 90.7197
516 90.6541
519 90.1617
522 89.797
525 89.6795
528 89.3519
531 88.8345
534 88.5533
537 88.1507
540 87.4552
543 86.8611
546 86.4984
549 85.8725
552 85.2833
555 85.0334
558 84.6185
561 84.1413
564 83.8681
567 83.5379
570 83.0784
573 82.7562
576 82.4274
579 82.2501
582 82.2038
585 82.113
588 82.1453
591 82.2424
594 82.1369
597 82.2111
600 82.5086
603 82.7653
606 82.9732
609 83.4281
612 83.7533
615 84.0594
618 84.5522
621 84.9913
624 85.291
627 85.8139
630 86.4282
633 86.9291
636 87.3591
639 87.917
642 88.317
645 88.6792
648 89.0626
651 89.4531
654 89.7095
657 89.996
660 90.3204
663 90.5246
666 90.5032
669 90.2388
672 90.4413
675 90.4003
678 90.2999
681 90.2055
684 89.9641
687 89.6516
690 89.3714
693 89.0301
696 88.5947
699 88.1824
702 87.7407
705 87.2911
708 86.7868
711 86.2916
714 85.7855
717 85.2734
720 84.7402
723 84.3091
726 83.8572
729 83.4283
732 83.0435
735 82.7073
738 82.4116
741 82.142
744 81.9529
747 81.772
750 81.6724
753 81.6162
756 81.6245
759 81.6812
762 81.7578
765 81.9026
768 82.1043
771 82.3499
774 82.658
777 82.9817
780 83.3495
783 83.6992
786 84.1027
789 84.5234
792 84.9454
795 85.3815
798 85.8474
801 86.2657
804 86.6832
807 87.0916
810 87.4732
813 87.8533
816 88.1975
819 88.5082
822 88.7605
825 88.985
828 89.1806
831 89.3319
834 89.4474
837 89.5093
840 89.5202
843 89.4811
846 89.3814
849 89.2153
852 89.0624
855 88.8602
858 88.6111
861 88.3317
864 88.0087
867 87.6482
870 87.2524
873 86.8573
876 86.4511
879 86.0382
882 85.6193
885 85.1935
888 84.7691
891 84.3815
894 84.0052
897 83.6329
900 83.294
903 82.9991
906 82.7373
909 82.5101
912 82.3363
915 82.1885
918 82.0713
921 82.0379
924 82.0366
927 82.0581
930 82.1332
933 82.2496
936 82.4088
939 82.6058
942 82.8266
945 83.0765
948 83.3591
951 83.6325
954 83.9439
957 84.2907
960 84.6356
963 84.9798
966 85.328
969 85.6577
972 85.9595
975 86.2905
978 86.6077
981 86.8881
984 87.1497
987 87.3628
990 87.5727
993 87.7432
996 87.8719
999 87.9669
1002 88.0281
1005 88.0239
1008 87.9909
1011 87.8868
1014 87.7591
1017 87.6062
1020 87.4509
1023 87.3385
1026 87.2193
1029 87.0424
1032 86.8314
1035 86.5997
1038 86.3338
1041 86.0277
1044 85.7309
1047 85.439
1050 85.121
1053 84.7989
1056 84.4979
1059 84.2046
1062 83.896
1065 83.629
1068 83.3595
1071 83.0929
1074 82.8199
1077 82.6565
1080 82.5909
1083 82.5095
1086 82.4404
1089 82.3809
1092 82.3512
1095 82.3611
1098 82.4116
1101 82.4762
1104 82.5799
1107 82.7162
1110 82.8928
1113 83.0899
1116 83.2931
1119 83.5216
1122 83.7651
1125 84.0184
1128 84.2829
1131 84.5585
1134 84.819
1137 85.0388
1140 85.1879
1143 85.3875
1146 85.7494
1149 86.0708
1152 86.3194
1155 86.518
1158 86.6873
1161 86.8445
1164 86.967
1167 87.0515
1170 87.1297
1173 87.1858
1176 87.1628
1179 87.0023
1182 86.9711
1185 87.0999
1188 87.0497
1191 86.9555
1194 86.8316
1197 86.6743
1200 86.5148
1203 86.326
1206 86.1292
1209 85.9079
1212 85.6708
1215 85.4443
1218 85.199
1221 84.9633
1224 84.7339
1227 84.4884
1230 84.26
1233 84.0377
1236 83.8384
1239 83.6321
1242 83.4462
1245 83.2881
1248 83.1487
1251 83.0385
1254 82.9544
1257 82.8743
1260 82.8096
1263 82.7999
1266 82.8289
1269 82.8737
1272 82.9452
1275 83.0246
1278 83.1339
1281 83.2427
1284 83.3717
1287 83.5234
1290 83.6829
1293 83.8379
1296 84.0196
1299 84.2092
1302 84.385
1305 84.5747
1308 84.7762
1311 84.9566
1314 85.1308
1317 85.3027
1320 85.4501
1323 85.6022
1326 85.7495
1329 85.8813
1332 85.9786
1335 86.0955
1338 86.196
1341 86.2117
1344 86.2393
1347 86.2741
1350 86.2909
1353 86.2773
1356 86.2518
1359 86.223
1362 86.1736
1365 86.0827
1368 85.9678
1371 85.8423
1374 85.6971
1377 85.5252
1380 85.2763
1383 84.7998
1386 84.6924
1389 84.8814
1392 84.8335
1395 84.7073
1398 84.5521
1401 84.3848
1404 84.2315
1407 84.0932
1410 83.9379
1413 83.8281
1416 83.7063
1419 83.6059
1422 83.523
1425 83.4369
1428 83.3844
1431 83.3487
1434 83.3082
1437 83.3077
1440 83.313
1443 83.3127
1446 83.328
1449 83.3564
1452 83.3989
1455 83.4943
1458 83.523
1461 83.5601
1464 83.6296
1467 83.7215
1470 83.862
1473 83.9906
1476 84.166
1479 84.3421
1482 84.4969
1485 84.6498
1488 84.8051
1491 84.8986
1494 85.0385
1497 85.1343
1500 85.2302
1503 85.3626
1506 85.4758
1509 85.5086
1512 85.5907
1515 85.6513
1518 85.6997
1521 85.7268
1524 85.7253
1527 85.7189
1530 85.6858
1533 85.6053
1536 85.4724
1539 85.335
1542 85.3169
1545 85.333
1548 85.3251
1551 85.309
1554 85.2245
1557 85.1084
1560 85.0868
1563 84.893
1566 84.7194
1569 84.5268
1572 84.3188
1575 84.0452
1578 83.9248
1581 83.7355
1584 83.6443
1587 83.7166
1590 83.7999
1593 83.8273
1596 83.8077
1599 83.7636
1602 83.7247
1605 83.6771
1608 83.635
1611 83.6005
1614 83.5771
1617 83.5336
1620 83.5181
1623 83.553
1626 83.6044
1629 83.6441
1632 83.7113
1635 83.7736
1638 83.8019
1641 83.8817
1644 83.9877
1647 84.0411
1650 84.1735
1653 84.2192
1656 84.2604
1659 84.4027
1662 84.4942
1665 84.5702
1668 84.7096
1671 84.7579
1674 84.8739
1677 84.9171
1680 85.0302
1683 85.1404
1686 85.1385
1689 85.2268
1692 85.2797
1695 85.3256
1698 85.3844
1701 85.4069
1704 85.4174
1707 85.4277
1710 85.421
1713 85.3949
1716 85.3678
1719 85.3455
1722 85.2694
1725 85.2135
1728 85.1574
1731 85.1032
1734 85.067
1737 85.0113
1740 84.9256
1743 84.8738
1746 84.7965
1749 84.7284
1752 84.6903
1755 84.5826
1758 84.4962
1761 84.3967
1764 84.3268
1767 84.2237
1770 84.1521
1773 84.0877
1776 84.0085
1779 83.9322
1782 83.8757
1785 83.822
1788 83.7807
1791 83.7561
1794 83.7141
1797 83.6988
1800 83.6884
1803 83.6831
1806 83.6987
1809 83.7274
1812 83.7521
1815 83.7947
1818 83.8519
1821 83.9162
1824 84
1827 84.0657
1830 84.1351
1833 84.2179
1836 84.3202
1839 84.421
1842 84.5422
1845 84.6098
1848 84.7159
1851 84.8075
1854 84.9042
1857 84.9984
1860 85.0878
1863 85.1778
1866 85.2591
1869 85.3292
1872 85.3917
1875 85.4341
1878 85.4757
1881 85.513
1884 85.5283
1887 85.5339
1890 85.5401
1893 85.5227
1896 85.491
1899 85.4602
1902 85.4149
1905 85.3471
1908 85.279
1911 85.2173
1914 85.1318
1917 85.0373
1920 84.9617
1923 84.8514
1926 84.751
1929 84.6548
1932 84.5494
1935 84.4395
1938 84.3384
1941 84.2432
1944 84.1564
1947 84.0599
1950 83.9672
1953 83.8969
1956 83.8321
1959 83.7688
1962 83.7287
1965 83.696
1968 83.6582
1971 83.6386
1974 83.6339
1977 83.6353
1980 83.6512
1983 83.678
1986 83.7141
1989 83.7625
1992 83.8092
1995 83.8709
1998 83.9373
2001 84.0007
2004 84.102
2007 84.1945
2010 84.2795
2013 84.3804
2016 84.4877
2019 84.5805
2022 84.6722
2025 84.7835
2028 84.8838
2031 84.9781
2034 85.0693
2037 85.1518
2040 85.2261
2043 85.2944
2046 85.3512
2049 85.3992
2052 85.4348
2055 85.4601
2058 85.4788
2061 85.4837
2064 85.4732
2067 85.4665
2070 85.4424
2073 85.3981
2076 85.3471
2079 85.297
2082 85.2274
2085 85.1464
2088 85.0685
2091 84.98
2094 84.8902
2097 84.7884
2100 84.6962
2103 84.5998
2106 84.4847
2109 84.3917
2112 84.3001
2115 84.2086
2118 84.1143
2121 84.0254
2124 83.9518
2127 83.8794
2130 83.8126
2133 83.7705
2136 83.7316
2139 83.6919
2142 83.6742
2145 83.668
2148 83.6631
2151 83.6741
2154 83.6953
2157 83.7264
2160 83.7653
2163 83.8129
2166 83.8716
2169 83.9367
2172 84.0033
2175 84.0786
2178 84.1669
2181 84.259
2184 84.3586
2187 84.4539
2190 84.5439
2193 84.6317
2196 84.7291
2199 84.8168
2202 84.9026
2205 84.9852
2208 85.0583
2211 85.1269
2214 85.1945
2217 85.2522
2220 85.299
2223 85.3331
2226 85.3625
2229 85.3787
2232 85.392
2235 85.3942
2238 85.3812
2241 85.3566
2244 85.3184
2247 85.2766
2250 85.2224
2253 85.1657
2256 85.0986
2259 85.0264
2262 84.9466
2265 84.8661
2268 84.7788
2271 84.6884
2274 84.5961
2277 84.5117
2280 84.4251
2283 84.3354
2286 84.2418
2289 84.1562
2292 84.0711
2295 83.9843
2298 83.8897
2301 83.8163
2304 83.7445
2307 83.6829
2310 83.6327
2313 83.5838
2316 83.5577
2319 83.5029
2322 83.4743
2325 83.5237
2328 83.5403
2331 83.5456
2334 83.6259
2337 83.6819
2340 83.7278
2343 83.7205
2346 83.7925
2349 83.9122
2352 83.9847
2355 84.0419
2358 84.1396
2361 84.2147
2364 84.3171
2367 84.3883
2370 84.4851
2373 84.5957
2376 84.7057
2379 84.8221
2382 85.0075
2385 85.0641
2388 85.1092
2391 85.1526
2394 85.1819
2397 85.2115
2400 85.223
2403 85.226
2406 85.228
2409 85.2171
2412 85.1998
2415 85.1759
2418 85.1405
2421 85.0987
2424 85.0441
2427 84.99
2430 84.9293
2433 84.8647
2436 84.7969
2439 84.7215
2442 84.6514
2445 84.5836
2448 84.5052
2451 84.4302
2454 84.3611
2457 84.2933
2460 84.2363
2463 84.1686
2466 84.1121
2469 84.07
2472 84.0263
2475 83.9953
2478 83.9721
2481 83.9532
2484 83.9407
2487 83.9451
2490 83.9462
2493 83.9618
2496 83.9836
2499 84.0027
2502 84.0267
2505 84.0659
2508 84.0957
2511 84.1378
2514 84.1866
2517 84.2403
2520 84.2925
2523 84.3444
2526 84.4081
2529 84.4769
2532 84.5312
2535 84.588
2538 84.6487
2541 84.7087
2544 84.7624
2547 84.8121
2550 84.8614
2553 84.9152
2556 84.9559
2559 84.9905
2562 85.0174
2565 85.03
2568 85.0551
2571 85.063
2574 85.0659
2577 85.0651
2580 85.0599
2583 85.0396
2586 85.0209
2589 84.9929
2592 84.9582
2595 84.9177
2598 84.8795
2601 84.8303
2604 84.7814
2607 84.7301
2610 84.6771
2613 84.6166
2616 84.559
2619 84.5042
2622 84.446
2625 84.3846
2628 84.3389
2631 84.2847
2634 84.244
2637 84.2037
2640 84.1735
2643 84.1448
2646 84.1129
2649 84.094
2652 84.0788
2655 84.0628
2658 84.0558
2661 84.0521
2664 84.0636
2667 84.0704
2670 84.072
2673 84.0821
2676 84.1
2679 84.1192
2682 84.1556
2685 84.1954
2688 84.2262
2691 84.2546
2694 84.2932
2697 84.3398
2700 84.3727
2703 84.4138
2706 84.4602
2709 84.5024
2712 84.5476
2715 84.5825
2718 84.6181
2721 84.6386
2724 84.6672
2727 84.6981
2730 84.7467
2733 84.7665
2736 84.7797
2739 84.7985
2742 84.8105
2745 84.8177
2748 84.8057
2751 84.8073
2754 84.8088
2757 84.8016
2760 84.783
2763 84.7631
2766 84.7384
2769 84.7189
2772 84.6911
2775 84.6424
2778 84.632
2781 84.6064
2784 84.5717
2787 84.5186
2790 84.4643
2793 84.45
2796 84.4088
2799 84.3553
2802 84.3468
2805 84.3217
2808 84.2797
2811 84.2446
2814 84.2352
2817 84.2005
2820 84.1682
2823 84.1479
2826 84.1277
2829 84.1071
2832 84.0719
2835 84.021
2838 83.9231
2841 83.8872
2844 83.7484
2847 83.3758
2850 83.2131
2853 83.4961
2856 83.731
2859 83.8289
2862 83.9178
2865 83.9891
2868 84.0376
2871 84.0371
2874 84.0139
2877 84.1124
2880 84.1496
2883 84.1727
2886 84.1822
2889 84.1777
2892 84.1715
2895 84.1367
2898 84.1405
2901 84.1313
2904 84.0949
2907 84.0316
2910 83.8477
2913 83.466
2916 83.1965
2919 83.2483
2922 83.4903
2925 83.7188
2928 83.8742
2931 84.0226
2934 84.1905
2937 84.276
2940 84.3124
2943 84.2783
2946 84.2782
2949 84.334
2952 84.3021
2955 84.2907
2958 84.2891
2961 84.2864
2964 84.3051
2967 84.3459
2970 84.3655
2973 84.3392
2976 84.3234
2979 84.31
2982 84.3137
2985 84.3274
2988 84.318
2991 84.251
2994 84.2323
2997 84.2222
3000 84.2371
3003 84.2345
3006 84.215
3009 84.1585
3012 84.056
3015 84.0667
3018 84.1294
3021 84.1534
3024 84.1447
3027 84.1724
3030 84.1657
3033 84.1251
3036 84.1494
3039 84.1658
3042 84.1024
3045 84.15
3048 84.2083
3051 84.1958
3054 84.2367
3057 84.2665
3060 84.3124
3063 84.3162
3066 84.2902
3069 84.3217
3072 84.3917
3075 84.3844
3078 84.297
3081 84.3209
3084 84.3578
3087 84.4311
3090 84.4446
3093 84.5135
3096 84.5515
3099 84.5234
3102 84.5444
3105 84.568
3108 84.5112
3111 84.5495
3114 84.4995
3117 84.3994
3120 84.4107
3123 84.524
3126 84.5628
3129 84.5291
3132 84.5354
3135 84.5286
3138 84.4445
3141 84.4353
3144 84.4693
3147 84.4615
3150 84.3801
3153 84.2863
3156 84.3655
3159 84.3662
3162 84.3473
3165 84.326
3168 84.3036
3171 84.2831
3174 84.2594
3177 84.2414
3180 84.2174
3183 84.2014
3186 84.1927
3189 84.1699
3192 84.1574
3195 84.1506
3198 84.1333
3201 84.1184
3204 84.104
3207 84.1052
3210 84.1069
3213 84.0955
3216 84.1037
3219 84.1076
3222 84.1208
3225 84.1289
3228 84.1449
3231 84.1016
3234 84.0495
3237 84.1703
3240 84.2106
3243 84.2171
3246 84.1781
3249 84.2281
3252 84.282
3255 84.267
3258 84.3201
3261 84.3653
3264 84.3749
3267 84.3766
3270 84.2869
3273 84.3256
3276 84.3859
3279 84.4453
3282 84.4629
3285 84.4555
3288 84.4542
3291 84.3798
3294 84.3596
3297 84.388
3300 84.4329
3303 84.3429
3306 84.1968
3309 84.2673
3312 84.3625
3315 84.3701
3318 84.35
3321 84.3297
3324 84.2629
3327 84.2368
3330 84.2487
3333 84.2198
3336 84.149
3339 84.0713
3342 84.0868
3345 84.0963
3348 84.0454
3351 83.9518
3354 84.0155
3357 84.0078
3360 83.9525
3363 83.941
3366 83.8566
3369 83.7564
3372 83.8254
3375 83.8634
3378 83.8543
3381 83.8468
3384 83.8594
3387 83.8631
3390 83.764
3393 83.7434
3396 83.8349
3399 83.7316
3402 83.7208
3405 83.8748
3408 83.8854
3411 83.8758
3414 83.9012
3417 83.9606
3420 83.9626
3423 83.982
3426 83.9826
3429 83.9446
3432 83.9341
3435 83.8865
3438 83.9569
3441 84.047
3444 84.074
3447 84.0958
3450 84.1296
3453 84.1317
3456 84.1396
3459 84.1223
3462 84.1369
3465 84.1034
3468 84.0242
3471 84.1042
3474 84.1585
3477 84.1365
3480 84.0882
3483 84.1426
3486 84.124
3489 84.1248
3492 84.1277
3495 84.0961
3498 84.074
3501 84.0551
3504 84.0457
3507 84.0859
3510 84.0779
3513 84.0175
3516 84.0201
3519 84.0103
3522 83.9488
3525 83.9296
3528 83.9639
3531 83.9404
3534 83.8961
3537 83.8551
3540 83.8688
3543 83.7912
3546 83.7656
3549 83.8362
3552 83.8367
3555 83.8518
3558 83.8516
3561 83.84
3564 83.8777
3567 83.9053
3570 83.8802
3573 83.9298
3576 83.966
3579 83.976
3582 83.9662
3585 83.9433
3588 84.0499
3591 84.0972
3594 84.1385
3597 84.1699
3600 84.1897
3603 84.2201
3606 84.2389
3609 84.3
3612 84.3311
3615 84.3379
3618 84.3441
3621 84.3754
3624 84.4184
3627 84.4152
3630 84.504
3633 84.4996
3636 84.5089
3639 84.5186
3642 84.5259
3645 84.4891
3648 84.4731
3651 84.4828
3654 84.4937
3657 84.4763
3660 84.4328
3663 84.4574
3666 84.4249
3669 84.4
3672 84.3594
3675 84.307
3678 84.2855
3681 84.3084
3684 84.2879
3687 84.1661
3690 84.1287
3693 84.1758
3696 84.1424
3699 84.1177
3702 84.0836
3705 84.0719
3708 84.0488
3711 84.0322
3714 83.9948
3717 83.9932
3720 83.9799
3723 83.9718
3726 83.9796
3729 83.9777
3732 83.9803
3735 83.9673
3738 83.9325
3741 83.9907
3744 84.0042
3747 84.0347
3750 84.0827
3753 84.1164
3756 84.1313
3759 84.1402
3762 84.173
3765 84.2112
3768 84.2273
3771 84.2647
3774 84.3087
3777 84.3063
3780 84.3206
3783 84.3725
3786 84.4055
3789 84.4163
3792 84.4364
3795 84.4522
3798 84.4541
3801 84.4866
3804 84.5043
3807 84.5024
3810 84.5174
3813 84.4994
3816 84.515
3819 84.4737
3822 84.5076
3825 84.4983
3828 84.4712
3831 84.4539
3834 84.4232
3837 84.3827
3840 84.4174
3843 84.3887
3846 84.3435
3849 84.3135
3852 84.2848
3855 84.2417
3858 84.2276
3861 84.2023
3864 84.1894
3867 84.1331
3870 84.1046
3873 84.084
3876 84.0499
3879 84.0206
3882 83.9929
3885 83.9772
3888 83.9684
3891 83.9565
3894 83.9774
3897 83.9756
3900 83.9672
3903 83.9822
3906 83.9875
3909 83.9988
3912 84.0059
3915 84.03
3918 84.0508
3921 84.0667
3924 84.0927
3927 84.1218
3930 84.1404
3933 84.1489
3936 84.1788
3939 84.2193
3942 84.2407
3945 84.2616
3948 84.2909
3951 84.2951
3954 84.3159
3957 84.3392
3960 84.3701
3963 84.3864
3966 84.3981
3969 84.4155
3972 84.4111
3975 84.4112
3978 84.4175
3981 84.4419
3984 84.4244
3987 84.433
3990 84.4614
3993 84.4509
3996 84.4251
3999 84.4139
4000 84.4136